Folder: backtradercpp/example_data/CSVDirectory/xrd

Note: ReadMe-template.md
# backtradercpp -- A header-only C++ 20 back testing library

As the name suggests, this library is partially inspired by `backtrader` of python. However `backtrader` constantly made me confusing so I decide to write my own library.

## Install

It's a header only library. However you need to install some dependencies. On windows:
```
./vcpkg install boost:x64-windows eigen3:x64-windows fmt:x64-windows
```


## Example
See `vs_examples`.

### Most basic example

```cpp
![[vs_examples/basic_1/basic_1.cpp]]
```

### Equal weight strategy

Use a weight vector to specify target asset value weights. Today's **open** will be used to calculate target volumes. `adjust_to_weight_target` is especially usefull for maching learning type strategies.

```cpp
![[vs_examples/equal_weight/equal_weight.cpp]]
```

### A directory of CSVs and stop on loss or profit

Here each csv represents an asset. It contains time, open, high, low, close. An array is used to specify the column index for each variable in sequence.

```cpp
![[vs_examples/delayed_buy/delayed_buy.cpp]]
```

## Important Notes

1. Please use **backward adjusted** data (keep oldest value fixed and adjust following data). When you buy, use **raw price**. I developed an algorithm to deal with backward adjusted data. The core idea is to track the profits under raw price (profti) and adjusted price (dyn_adj_profit). Then the differen `adj_profit - profit` is profits due to external factors. Total wealth will be
```
total wealth = cash + asset value under raw price + (dyn_adj_profit - profit)
```

When you sell, a propotion of difference `dyn_adj_profit - profit` will be added to your cash. This means if price adjust is due to dividends, then they will be added to your cash after you sell assets. Although normally they will be direct send to you cash account. But dividens usually are small so I think delayed converting to cash won't too make much difference and I didn't come up with a better idea.

Due to forward adjuted prices (keep newest price fixed and adjust older data) may be negative, I'm not sure if my algorithm will work at this case.

2. The library will read data row by row. So you must sort data before running. Also note that currently data sources doesn't deal with thousands separator. Please preprocess data before.
## Reference

### Data API used in strategy

```cpp
boost::posix_time::ptime time(); // Current time.
int time_index();  //Count of days.

FullAssetData &data(int broker);  	
	VecArrXd data(broker).open(int i=-1);  //-1 means latest (today) in window, -2 means previous day.
	double   data(broker).open(int i, int asset); //close of an asset.
	                      high(), low(), close()    //similar.
	                      adj_open(), adj_high(), adj_low(), adj_close();
	VecXrrXb data(broker).valid(int i=-1);  //If asset is valid.

int assets(int broker);  //Number of assets.
double cash(int broker);

const VecArrXi &positions(int broker) ; //A full length vector (may contain 0 if di

File: 000021.SZ.csv
,公告日期,送股,转增,派息,进度,除权除息日,股权登记日,红股上市日
0,2022-06-11,0.0,0,1.5,实施,2022-06-17,2022-06-16,
1,2021-06-04,0.0,0,1.6,实施,2021-06-10,2021-06-09,
2,2020-06-11,0.0,0,0.6,实施,2020-06-18,2020-06-17,
3,2019-06-20,0.0,0,1.0,实施,2019-06-27,2019-06-26,
4,2018-06-21,0.0,0,0.5,实施,2018-06-28,2018-06-27,
5,2017-06-15,0.0,0,0.5,实施,2017-06-22,2017-06-21,
6,2016-06-08,0.0,0,0.5,实施,2016-06-16,2016-06-15,
7,2015-06-12,0.0,0,0.5,实施,2015-06-18,2015-06-17,
8,2014-06-12,0.0,0,0.5,实施,2014-06-19,2014-06-18,
9,2013-06-07,0.0,0,0.2,实施,2013-06-19,2013-06-18,
10,2012-06-15,0.0,0,1.0,实施,2012-06-25,2012-06-21,
11,2011-06-10,0.0,0,1.5,实施,2011-06-20,2011-06-17,
12,2010-06-03,2.0,3,2.0,实施,2010-06-10,2010-06-09,
13,2009-06-18,0.0,0,1.5,实施,2009-06-24,2009-06-23,
14,2008-06-06,0.0,0,4.0,实施,2008-06-13,2008-06-12,
15,2007-06-11,0.0,0,4.0,实施,2007-06-15,2007-06-14,
16,2006-06-09,2.0,0,1.5,实施,2006-06-15,2006-06-14,
17,2005-06-15,0.0,0,1.5,实施,2005-06-22,2005-06-21,
18,2004-06-25,0.0,0,1.0,实施,2004-07-01,2004-06-30,
19,2003-07-11,0.0,0,1.0,实施,2003-07-18,2003-07-17,
20,2002-07-05,0.0,0,0.6,实施,2002-07-11,2002-07-10,
21,2001-05-17,0.0,0,0.5,实施,2001-05-25,2001-05-24,
22,2000-06-06,0.0,0,0.3,实施,2000-06-13,2000-06-12,
23,1999-05-04,1.0,2,3.0,实施,1999-05-10,1999-05-07,
24,1998-06-17,0.0,0,1.2,实施,1998-06-23,1998-06-22,
25,1997-06-14,6.0,4,2.0,实施,1997-06-20,1997-06-19,
26,1996-06-07,3.0,0,1.5,实施,1996-06-11,1996-06-10,
27,1995-11-09,0.0,0,0.5,实施,1995-11-22,1995-11-21,
28,1994-08-17,2.5,0,0.4,实施,1994-08-31,1994-08-30,

File: 000725.SZ.csv
,?砍??交?,?,頧砍?,瘣暹,餈漲,?斗??斗???⊥??餉扇??蝥Ｚ銝???
0,2022-05-24,0,0,2.1,摰,2022-05-30,2022-05-27,
1,2021-05-28,0,0,1.0,摰,2021-06-04,2021-06-03,
2,2020-06-30,0,0,0.2,摰,2020-07-06,2020-07-03,
3,2019-05-25,0,0,0.3,摰,2019-05-31,2019-05-30,
4,2018-06-20,0,0,0.5,摰,2018-06-26,2018-06-25,
5,2017-07-08,0,0,0.3,摰,2017-07-14,2017-07-13,
6,2016-06-22,0,0,0.1,摰,2016-06-28,2016-06-27,
7,2015-10-28,0,0,0.1,摰,2015-11-04,2015-11-03,
8,2015-04-21,0,0,0.0,銝???,,
9,2014-04-22,0,0,0.0,銝???,,
10,2013-04-23,0,0,0.0,銝???,,
11,2012-04-27,0,0,0.0,銝???,,
12,2011-06-14,0,2,0.0,摰,2011-06-20,2011-06-17,2011-06-20
13,2010-04-20,0,0,0.0,銝???,,
14,2009-04-21,0,0,0.0,銝???,,
15,2008-04-01,0,0,0.0,銝???,,
16,2007-04-27,0,0,0.0,銝???,,
17,2006-04-28,0,0,0.0,銝???,,
18,2005-07-13,0,5,0.0,摰,2005-07-19,2005-07-18,2005-07-19
19,2005-06-21,0,0,0.2,摰,2005-06-28,2005-06-27,
20,2004-06-03,0,5,0.1,摰,2004-06-09,2004-06-08,
21,2003-06-04,0,2,0.0,摰,2003-06-10,2003-06-09,2003-06-10
22,2002-07-12,0,0,0.5,摰,2002-07-22,2002-07-19,
23,2001-08-03,0,0,1.0,摰,2001-08-13,2001-08-10,

File: 002078.SZ.csv
,?砍??交?,?,頧砍?,瘣暹,餈漲,?斗??斗???⊥??餉扇??蝥Ｚ銝???
0,2022-06-28,0,0,2.0,摰,2022-07-06,2022-07-05,
1,2021-07-01,0,0,1.0,摰,2021-07-08,2021-07-07,
2,2020-06-30,0,0,1.0,摰,2020-07-08,2020-07-07,
3,2019-05-16,0,0,1.0,摰,2019-05-23,2019-05-22,
4,2018-06-15,0,0,1.0,摰,2018-06-22,2018-06-21,
5,2017-06-21,0,0,0.5,摰,2017-06-28,2017-06-27,
6,2016-07-06,0,0,0.5,摰,2016-07-13,2016-07-12,
7,2015-07-04,0,0,0.5,摰,2015-07-10,2015-07-09,
8,2014-05-15,0,10,1.0,摰,2014-05-22,2014-05-21,
9,2013-07-02,0,0,1.0,摰,2013-07-10,2013-07-09,
10,2012-06-28,0,0,1.0,摰,2012-07-06,2012-07-05,
11,2011-07-04,0,0,1.5,摰,2011-07-12,2011-07-11,
12,2010-06-05,4,6,2.0,摰,2010-06-11,2010-06-10,
13,2009-06-03,0,0,2.0,摰,2009-06-11,2009-06-10,
14,2008-06-12,0,4,1.0,摰,2008-06-19,2008-06-18,
15,2007-06-01,1,2,0.12,摰,2007-06-08,2007-06-07,

File: 002185.SZ.csv
,?砍??交?,?,頧砍?,瘣暹,餈漲,?斗??斗???⊥??餉扇??蝥Ｚ銝???
0,2022-06-22,0,0,0.45,摰,2022-06-29,2022-06-28,
1,2021-06-10,0,0,0.22,摰,2021-06-18,2021-06-17,
2,2020-06-16,0,0,0.15,摰,2020-06-24,2020-06-23,
3,2019-05-24,0,0,0.2,摰,2019-05-31,2019-05-30,
4,2018-06-12,0,0,0.2,摰,2018-06-20,2018-06-19,
5,2017-06-14,0,10,0.5,摰,2017-06-20,2017-06-19,
6,2016-06-08,0,3,0.6,摰,2016-06-17,2016-06-16,
7,2015-06-11,0,0,0.6,摰,2015-06-17,2015-06-16,
8,2014-06-06,0,0,0.5,摰,2014-06-13,2014-06-12,
9,2013-06-15,0,0,0.5,摰,2013-06-21,2013-06-20,
10,2012-07-06,0,6,1.0,摰,2012-07-12,2012-07-11,
11,2011-02-17,0,0,0.0,銝???,,
12,2010-05-11,0,3,0.5,摰,2010-05-18,2010-05-17,
13,2009-05-16,0,1,0.0,摰,2009-05-25,2009-05-22,2009-05-25
14,2008-05-08,0,5,0.0,摰,2008-05-16,2008-05-15,2008-05-16

File: 002236.SZ.csv
,?砍??交?,?,頧砍?,瘣暹,餈漲,?斗??斗???⊥??餉扇??蝥Ｚ銝???
0,2022-05-25,0,0,2.7,摰,2022-06-01,2022-05-31,
1,2021-04-30,0,0,2.68,摰,2021-05-12,2021-05-11,
2,2020-05-15,0,0,1.33,摰,2020-05-22,2020-05-21,
3,2019-04-13,0,0,1.00001,摰,2019-04-19,2019-04-18,
4,2018-05-05,0,0,2.0,摰,2018-05-11,2018-05-10,
5,2017-06-02,0,0,1.0,摰,2017-06-08,2017-06-07,
6,2016-04-20,8,7,2.0,摰,2016-04-27,2016-04-26,
7,2015-05-15,0,0,1.0,摰,2015-05-22,2015-05-21,
8,2014-05-16,0,0,0.9791,摰,2014-05-22,2014-05-21,
9,2013-04-10,10,0,1.6,摰,2013-04-16,2013-04-15,
10,2012-05-22,0,10,2.5,摰,2012-05-29,2012-05-28,
11,2011-06-01,5,5,5.0,摰,2011-06-08,2011-06-07,
12,2010-04-29,5,5,6.0,摰,2010-05-07,2010-05-06,
13,2009-05-06,0,0,2.25,摰,2009-05-13,2009-05-12,

File: 002561.SZ.csv
,公告日期,送股,转增,派息,进度,除权除息日,股权登记日,红股上市日
0,2022-06-23,0,0,1.6,实施,2022-06-29,2022-06-28,
1,2021-05-07,0,0,1.2,实施,2021-05-13,2021-05-12,
2,2020-05-13,0,0,3.6,实施,2020-05-20,2020-05-19,
3,2019-05-09,0,0,3.6,实施,2019-05-16,2019-05-15,
4,2018-05-09,0,0,3.6,实施,2018-05-15,2018-05-14,
5,2017-05-04,0,0,3.6,实施,2017-05-11,2017-05-10,
6,2016-04-29,0,0,3.6,实施,2016-05-06,2016-05-05,
7,2015-04-23,0,0,3.6,实施,2015-04-30,2015-04-29,
8,2014-04-21,0,0,3.6,实施,2014-04-29,2014-04-28,
9,2013-05-07,0,0,3.6,实施,2013-05-14,2013-05-13,
10,2012-02-24,0,0,3.6,实施,2012-03-01,2012-02-29,
11,2011-09-01,0,0,3.2,实施,2011-09-08,2011-09-07,
12,2011-05-26,0,0,0.0,不分配,,,

File: 002657.SZ.csv
,公告日期,送股,转增,派息,进度,除权除息日,股权登记日,红股上市日
0,2022-04-23,0,0,0.0,不分配,,,
1,2021-07-05,0,0,0.032,实施,2021-07-12,2021-07-09,
2,2020-04-24,0,0,0.0,不分配,,,
3,2019-07-02,0,0,0.05,实施,2019-07-08,2019-07-05,
4,2018-04-18,0,0,0.0,不分配,,,
5,2017-07-04,0,0,0.5,实施,2017-07-10,2017-07-07,
6,2016-06-21,0,0,0.4,实施,2016-06-27,2016-06-24,
7,2015-03-16,0,10,0.6,实施,2015-03-20,2015-03-19,
8,2014-09-16,0,2,0.0,实施,2014-09-22,2014-09-19,2014-09-22
9,2014-05-22,0,0,0.7,实施,2014-05-28,2014-05-27,
10,2013-06-05,0,5,1.5,实施,2013-06-14,2013-06-13,
11,2012-02-17,0,0,0.0,不分配,,,

File: 600256.SH.csv
,公告日期,送股,转增,派息,进度,除权除息日,股权登记日,红股上市日
0,2022-06-21,0,0,4.0,实施,2022-06-27,2022-06-24,
1,2021-04-10,0,0,0.0,不分配,,,
2,2020-04-25,0,0,0.0,不分配,,,
3,2019-05-31,0,0,1.0,实施,2019-06-06,2019-06-05,
4,2018-06-21,0,0,0.5,实施,2018-06-28,2018-06-27,
5,2017-06-08,0,0,0.3,实施,2017-06-15,2017-06-14,
6,2016-04-22,0,0,0.0,不分配,,,
7,2015-07-09,0,0,0.5,实施,2015-07-16,2015-07-15,
8,2014-04-22,0,0,0.0,不分配,,,
9,2013-06-18,3,2,0.5,实施,2013-06-24,2013-06-21,
10,2012-05-19,0,8,0.0,实施,2012-05-25,2012-05-24,2012-05-28
11,2011-03-24,5,0,0.6,实施,2011-03-30,2011-03-29,
12,2010-04-20,3,0,0.4,实施,2010-04-26,2010-04-23,
13,2009-04-17,1,0,1.0,实施,2009-04-23,2009-04-22,
14,2008-03-06,0,0,0.0,不分配,,,
15,2007-06-02,0,0,1.0,实施,2007-06-08,2007-06-07,
16,2006-04-25,0,0,0.0,不分配,,,
17,2005-05-21,0,0,0.0,不分配,,,
18,2004-06-16,2,0,0.5,实施,2004-06-23,2004-06-22,
19,2002-09-06,2,0,0.5,实施,2002-09-12,2002-09-11,
20,2001-09-21,6,1,1.5,实施,2001-09-28,2001-09-27,
21,2000-10-31,0,10,0.0,实施,2000-11-06,2000-11-03,2000-11-06

File: 600390.SH.csv
,?砍??交?,?,頧砍?,瘣暹,餈漲,?斗??斗???⊥??餉扇??蝥Ｚ銝???
0,2022-09-21,0,0,1.35,摰,2022-09-27,2022-09-26,
1,2022-04-27,0,0,0.0,銝???,,
2,2021-09-17,0,0,2.48,摰,2021-09-27,2021-09-24,
3,2021-06-15,0,0,1.04,摰,2021-06-21,2021-06-18,
4,2020-09-22,0,0,0.79,摰,2020-09-28,2020-09-25,
5,2020-04-28,0,0,0.0,銝???,,
6,2019-09-20,0,2,1.81,摰,2019-09-26,2019-09-25,
7,2019-04-27,0,0,0.0,銝???,,
8,2018-10-24,0,0,1.98,摰,2018-10-31,2018-10-30,
9,2018-04-28,0,0,0.0,銝???,,
10,2017-04-26,0,0,0.0,銝???,,
11,2016-04-28,0,0,0.0,銝???,,
12,2015-02-14,0,0,0.0,銝???,,
13,2014-04-19,0,0,0.0,銝???,,
14,2013-07-03,0,10,0.0,摰,2013-07-09,2013-07-08,2013-07-10
15,2012-02-21,0,0,0.0,銝???,,
16,2011-03-02,0,0,0.0,銝???,,
17,2010-03-20,0,0,0.0,銝???,,
18,2009-06-05,0,0,0.2,摰,2009-06-11,2009-06-10,
19,2008-05-28,0,0,0.5,摰,2008-06-03,2008-06-02,
20,2007-05-29,0,5,0.4,摰,2007-06-01,2007-05-31,
21,2006-04-15,0,0,0.0,銝???,,
22,2005-03-30,0,0,0.0,銝???,,
23,2003-07-03,0,0,1.4,摰,2003-07-09,2003-07-08,
24,2002-07-05,0,0,1.5,摰,2002-07-12,2002-07-11,
25,2001-05-29,0,0,1.0,摰,2001-06-05,2001-06-04,

File: 600491.SH.csv
,公告日期,送股,转增,派息,进度,除权除息日,股权登记日,红股上市日
0,2022-06-24,0,0,0.42,实施,2022-07-01,2022-06-30,
1,2021-07-01,0,0,0.5,实施,2021-07-08,2021-07-07,
2,2020-07-08,0,0,0.72,实施,2020-07-15,2020-07-14,
3,2019-07-12,0,0,0.6,实施,2019-07-18,2019-07-17,
4,2018-07-03,0,0,0.35,实施,2018-07-09,2018-07-06,
5,2017-07-04,0,0,0.35,实施,2017-07-10,2017-07-07,
6,2016-06-28,0,0,0.2,实施,2016-07-04,2016-07-01,
7,2015-07-02,0,0,0.3,实施,2015-07-08,2015-07-07,
8,2014-06-25,0,0,0.75,实施,2014-07-01,2014-06-30,
9,2013-05-28,0,0,1.3,实施,2013-06-03,2013-05-31,
10,2012-05-15,0,0,0.8,实施,2012-05-21,2012-05-18,
11,2011-05-20,5,5,1.0,实施,2011-05-26,2011-05-25,
12,2010-05-17,0,0,0.5,实施,2010-05-21,2010-05-20,
13,2009-05-15,0,0,1.0,实施,2009-05-22,2009-05-21,
14,2008-05-14,0,0,1.0,实施,2008-05-20,2008-05-19,
15,2007-07-06,0,0,1.0,实施,2007-07-12,2007-07-11,
16,2006-06-07,0,6,1.5,实施,2006-06-13,2006-06-12,
17,2005-05-12,0,5,3.0,实施,2005-05-18,2005-05-17,
18,2004-10-11,0,5,0.0,实施,2004-10-15,2004-10-14,2004-10-18